File: resources/CeO2_Nov15_2013_003_0001.chi
Z:\500_500\Data\2013-3\Ross\HPmelting\Mo\cell_gs-1\CeO2_Nov15_2013_003_0001.tif:
2-Theta Angle (Degrees)

       1110
 5.26962  141.961
 5.28903  142.153
 5.30844  142.277
 5.32785  142.601
 5.34726  143.094
 5.36667  142.992
 5.38608  142.778
 5.40549  143.008
 5.42489  143.351
 5.4443  143.499
 5.46371  143.576
 5.48312  143.588
 5.50253  143.67
 5.52194  143.751
 5.54135  143.761
 5.56076  144.409
 5.58017  144.75
 5.59958  144.847
 5.61899  144.463
 5.6384  144.433
 5.65781  144.55
 5.67722  144.575
 5.69662  144.125
 5.71603  144.342
 5.73544  144.393
 5.75485  144.436
 5.77426  143.677
 5.79367  143.652
 5.81308  143.448
 5.83249  143.363
 5.8519  142.684
 5.87131  142.374
 5.89072  142.385
 5.91013  141.868
 5.92954  141.205
 5.94895  141.556
 5.96835  141.642
 5.98776  141.225
 6.00717  141.541
 6.02658  141.382
 6.04599  140.742
 6.0654  140.092
 6.08481  140.329
 6.10422  139.359
 6.12363  139.062
 6.14304  138.829
 6.16245  138.329
 6.18186  136.976
 6.20127  136.99
 6.22067  136.548
 6.24008  136.16
 6.25949  135.271
 6.2789  135.067
 6.29831  134.666
 6.31772  134.588
 6.33713  134.237
 6.35654  133.583
 6.37595  132.95
 6.39536  132.409
 6.41477  131.372
 6.43418  130.697
 6.45359  130.343
 6.473  130.085
 6.4924  129.396
 6.51181  129.054
 6.53122  129.122
 6.55063  129.039
 6.57004  128.369
 6.58945  127.274
 6.60886  126.956
 6.62827  127.138
 6.64768  126.721
 6.66709  125.582
 6.6865  124.619
 6.70591  124.427
 6.72532  124.597
 6.74473  123.911
 6.76413  123.06
 6.78354  122.151
 6.80295  121.853
 6.82236  121.555
 6.84177  121.337
 6.86118  121.139
 6.88059  120.863
 6.9  120.688
 6.91941  120.012
 6.93882  119.848
 6.95823  119.624
 6.97764  119.365
 6.99705  119.143
 7.01646  119.205
 7.03586  119.501
 7.05527  119.764
 7.07468  119.023
 7.09409  118.674
 7.1135  118.82
 7.13291  119.332
 7.15232  119.732
 7.17173  120.288
 7.19114  121.308
 7.21055  121.976
 7.22996  123.108
 7.24937  124.842
 7.26878  127.061
 7.28819  129.659
 7.30759  133.672
 7.327  139.092
 7.34641  147.514
 7.36582  160.866
 7.38523  191.314
 7.40464  343.231
 7.42405  1595.5
 7.44346  4239.77
 7.46287  6191.76
 7.48228  4659.91
 7.50169  1709.05
 7.5211  363.091
 7.54051  194.042
 7.55992  160.856
 7.57932  145.193
 7.59873  134.478
 7.61814  127.969
 7.63755  122.408
 7.65696  118.293
 7.67637  114.588
 7.69578  111.527
 7.71519  108.854
 7.7346  106.812
 7.75401  105.089
 7.77342  103.723
 7.79283  102.31
 7.81224  100.965
 7.83165  99.6892
 7.85105  98.8452
 7.87046  97.883
 7.88987  96.9224
 7.90928  95.6819
 7.92869  95.0134
 7.9481  94.6853
 7.96751  94.1184
 7.98692  93.0465
 8.00633  92.3497
 8.02574  91.575
 8.04515  90.7388
 8.06456  90.2802
 8.08397  90.0472
 8.10338  90.0038
 8.12278  89.8361
 8.14219  89.2699
 8.1616  88.5821
 8.18101  87.6731
 8.20042  86.9945
 8.21983  86.7506
 8.23924  86.5294
 8.25865  86.4948
 8.27806  86.3651
 8.29747  86.0953
 8.31688  85.8668
 8.33629  85.8586
 8.3557  85.6498
 8.37511  85.5923
 8.39452  85.503
 8.41392  85.7324
 8.43333  86.574
 8.45274  87.3407
 8.47215  88.1623
 8.49156  89.6064
 8.51097  92.1376
 8.53038  96.6171
 8.54979  111.506
 8.5692  218.428
 8.58861  757.398
 8.60802  1480.01
 8.62743  1565.55
 8.64684  875.569
 8.66624  289.623
 8.68565  117.661
 8.70506  97.0262
 8.72447  89.8686
 8.74388  86.6074
 8.76329  84.0871
 8.7827  82.1186
 8.80211  80.7894
 8.82152  79.4271
 8.84093  78.3206
 8.86034  77.7595
 8.87975  77.2818
 8.89916  76.7633
 8.91857  76.0225
 8.93797  75.4057
 8.95738  74.8923
 8.97679  74.569
 8.9962  73.9813
 9.01561  73.6913
 9.03502  73.2148
 9.05443  72.706
 9.07384  72.1735
 9.09325  72.2796
 9.11266  72.3222
 9.13207  71.7289
 9.15148  70.8938
 9.17089  70.6341
 9.1903  70.5707
 9.2097  70.4348
 9.22911  70.2827
 9.24852  69.9223
 9.26793  69.4038
 9.28734  69.2088
 9.30675  69.2031
 9.32616  68.9811
 9.34557  68.5231
 9.36498  68.1878
 9.38439  68.1198
 9.4038  68.0574
 9.42321  67.836
 9.44262  67.4316
 9.46203  67.2309
 9.48143  67.1133
 9.50084  66.937
 9.52025  67.1527
 9.53966  67.3003
 9.55907  67.2735
 9.57848  67.021
 9.59789  66.2889
 9.6173  65.6732
 9.63671  65.6761
 9.65612  65.7214
 9.67553  65.3336
 9.69494  64.8025
 9.71435  64.7858
 9.73376  64.7455
 9.75316  64.7637
 9.77257  64.5703
 9.79198  64.0639
 9.81139  64.0891
 9.8308  64.2347
 9.85021  64.2206
 9.86962  63.9128
 9.88903  63.4543
 9.90844  63.2123
 9.92785  63.1469
 9.94726  62.9945
 9.96667  62.8381
 9.98608  62.7924
 10.0055  62.6761
 10.0249  62.5494
 10.0443  62.5122
 10.0637  62.6143
 10.0831  62.7368
 10.1025  62.5514
 10.1219  62.3643
 10.1413  62.3474
 10.1608  62.3324
 10.1802  62.233
 10.1996  62.1381
 10.219  62.0511
 10.2384  62.3006
 10.2578  62.5202
 10.2772  62.4518
 10.2966  62.1908
 10.316  62.2679
 10.3354  62.512
 10.3549  62.8069
 10.3743  63.2601
 10.3937  63.9004
 10.4131  65.1342
 10.4325  67.524
 10.4519  71.1669
 10.4713  74.0821
 10.4907  74.6632
 10.5101  72.4671
 10.5295  68.9632
 10.5489  65.9915
 10.5684  64.2148
 10.5878  63.2827
 10.6072  63.1005
 10.6266  62.9325
 10.646  62.3984
 10.6654  61.7388
 10.6848  61.5404
 10.7042  62.0666
 10.7236  62.2126
 10.743  62.1307
 10.7624  62.0167
 10.7819  61.8417
 10.8013  61.7738
 10.8207  61.8333
 10.8401  61.8762
 10.8595  61.9577
 10.8789  62.0833
 10.8983  62.2108
 10.9177  62.5192
 10.9371  62.523
 10.9565  62.1771
 10.9759  61.9843
 10.9954  62.0047
 11.0148  62.0209
 11.0342  62.046
 11.0536  62.108
 11.073  62.0399
 11.0924  62.048
 11.1118  62.1959
 11.1312  62.2373
 11.1506  62.3194
 11.17  62.296
 11.1895  62.1509
 11.2089  62.1902
 11.2283  62.2264
 11.2477  62.1602
 11.2671  62.1531
 11.2865  62.0863
 11.3059  62.0653
 11.3253  62.2198
 11.3447  62.2431
 11.3641  62.315
 11.3835  62.5196
 11.403  62.8334
 11.4224  62.8265
 11.4418  62.7169
 11.4612  62.6673
 11.4806  62.8003
 11.5  62.7863
 11.5194  62.918
 11.5388  63.0715
 11.5582  63.1743
 11.5776  63.285
 11.597  63.4628
 11.6165  63.5144
 11.6359  63.6814
 11.6553  63.9871
 11.6747  63.9603
 11.6941  63.9324
 11.7135  64.1243
 11.7329  64.429
 11.7523  64.7683
 11.7717  65.0599
 11.7911  65.4663
 11.8105  66.0285
 11.83  66.8706
 11.8494  67.5047
 11.8688  67.8884
 11.8882  68.0624
 11.9076  68.64
 11.927  69.3769
 11.9464  70.4621
 11.9658  71.5438
 11.9852  72.9489
 12.0046  74.9543
 12.0241  77.067
 12.0435  79.3956
 12.0629  83.0833
 12.0823  88.5721
 12.1017  97.4012
 12.1211  116.556
 12.1405  200.421
 12.1599  933.458
 12.1793  2461.06
 12.1987  3570.18
 12.2181  2765.21
 12.2376  1113.38
 12.257  296.411
 12.2764  132.133
 12.2958  103.162
 12.3152  91.7898
 12.3346  85.0998
 12.354  80.7255
 12.3734  77.6666
 12.3928  75.5402
 12.4122  74.396
 12.4316  73.3953
 12.4511  71.5047
 12.4705  70.0731
 12.4899  68.8477
 12.5093  67.893
 12.5287  67.1723
 12.5481  66.6044
 12.5675  65.8166
 12.5869  65.1872
 12.6063  65.0259
 12.6257  64.8713
 12.6451  64.5197
 12.6646  63.8306
 12.684  63.2456
 12.7034  63.2133
 12.7228  63.1997
 12.7422  62.8488
 12.7616  62.636
 12.781  62.3289
 12.8004  62.0654
 12.8198  61.8634
 12.8392  61.8343
 12.8586  61.5317
 12.8781  61.3243
 12.8975  61.2625
 12.9169  61.4109
 12.9363  61.5038
 12.9557  61.4383
 12.9751  61.3298
 12.9945  61.1554
 13.0139  61.0036
 13.0333  60.9351
 13.0527  60.6916
 13.0722  60.4868
 13.0916  60.4757
 13.111  60.534
 13.1304  60.4882
 13.1498  60.6748
 13.1692  60.9419
 13.1886  61.0954
 13.208  61.1965
 13.2274  61.0172
 13.2468  60.7195
 13.2662  60.5577
 13.2857  60.5865
 13.3051  60.66
 13.3245  60.7421
 13.3439  60.845
 13.3633  60.8788
 13.3827  60.722
 13.4021  60.5969
 13.4215  60.6856
 13.4409  60.5392
 13.4603  60.6016
 13.4797  60.9057
 13.4992  60.9999
 13.5186  60.6137
 13.538  60.5488
 13.5574  60.7537
 13.5768  60.8181
 13.5962  60.8382
 13.6156  60.9469
 13.635  61.0456
 13.6544  61.163
 13.6738  61.2508
 13.6932  61.344
 13.7127  61.5787
 13.7321  61.5757
 13.7515  61.6306
 13.7709  61.8681
 13.7903  62.1199
 13.8097  62.2773
 13.8291  62.4365
 13.8485  62.6421
 13.8679  62.8735
 13.8873  63.0151
 13.9068  63.3815
 13.9262  63.8544
 13.9456  64.1356
 13.965  64.3641
 13.9844  64.8746
 14.0038  65.4008
 14.0232  66.1017
 14.0426  67.0191
 14.062  67.9564
 14.0814  69.1309
 14.1008  70.4507
 14.1203  71.7938
 14.1397  73.8023
 14.1591  76.6004
 14.1785  79.8392
 14.1979  84.4473
 14.2173  92.912
 14.2367  110.789
 14.2561  201.727
 14.2755  723.798
 14.2949  2171.95
 14.3143  3141.56
 14.3338  2469.09
 14.3532  1056.3
 14.3726  289.592
 14.392  125.589
 14.4114  98.3923
 14.4308  88.346
 14.4502  82.5515
 14.4696  78.6023
 14.489  75.6581
 14.5084  73.3993
 14.5278  71.7426
 14.5473  70.4619
 14.5667  69.3827
 14.5861  68.3219
 14.6055  67.4373
 14.6249  66.8344
 14.6443  66.4804
 14.6637  66.0557
 14.6831  65.8669
 14.7025  65.7235
 14.7219  65.4625
 14.7414  65.4442
 14.7608  65.6787
 14.7802  66.2297
 14.7996  67.2245
 14.819  68.6554
 14.8384  70.1674
 14.8578  71.7165
 14.8772  74.6886
 14.8966  94.4324
 14.916  200.213
 14.9354  447.791
 14.9549  578.804
 14.9743  430.984
 14.9937  219.547
 15.0131  97.2444
 15.0325  72.4642
 15.0519  67.2647
 15.0713  65.31
 15.0907  64.2914
 15.1101  63.6057
 15.1295  62.967
 15.1489  62.6163
 15.1684  62.4288
 15.1878  62.2459
 15.2072  61.8101
 15.2266  61.5804
 15.246  61.4931
 15.2654  61.4063
 15.2848  61.0749
 15.3042  60.6389
 15.3236  60.4975
 15.343  60.4301
 15.3624  60.4311
 15.3819  60.4164
 15.4013  60.5111
 15.4207  60.6091
 15.4401  60.4425
 15.4595  60.1794
 15.4789  60.0865
 15.4983  60.113
 15.5177  60.1278
 15.5371  60.1479
 15.5565  60.106
 15.5759  60.0121
 15.5954  59.941
 15.6148  59.9733
 15.6342  59.9171
 15.6536  59.6832
 15.673  59.6293
 15.6924  59.6019
 15.7118  59.6697
 15.7312  59.715
 15.7506  59.6093
 15.77  59.6219
 15.7895  59.9985
 15.8089  60.1794
 15.8283  59.8268
 15.8477  59.5166
 15.8671  59.6269
 15.8865  59.8406
 15.9059  59.9682
 15.9253  59.9647
 15.9447  59.8242
 15.9641  59.6926
 15.9835  59.6781
 16.003  59.806
 16.0224  59.9218
 16.0418  59.6841
 16.0612  59.4915
 16.0806  59.6277
 16.1  59.7188
 16.1194  59.8254
 16.1388  59.8117
 16.1582  59.8257
 16.1776  59.831
 16.197  59.7963
 16.2165  59.743
 16.2359  59.7365
 16.2553  59.7906
 16.2747  59.8832
 16.2941  60.0754
 16.3135  60.1624
 16.3329  60.0474
 16.3523  59.9303
 16.3717  59.946
 16.3911  59.9911
 16.4105  59.9433
 16.43  59.9534
 16.4494  59.9416
 16.4688  59.9113
 16.4882  59.9431
 16.5076  59.8894
 16.527  59.7888
 16.5464  59.8024
 16.5658  59.8377
 16.5852  59.7682
 16.6046  59.9258
 16.6241  60.223
 16.6435  60.3565
 16.6629  60.2617
 16.6823  60.1402
 16.7017  60.174
 16.7211  60.2447
 16.7405  60.3799
 16.7599  60.5374
 16.7793  60.486
 16.7987  60.4419
 16.8181  60.5698
 16.8376  60.7142
 16.857  60.9659
 16.8764  60.9603
 16.8958  61.0396
 16.9152  61.1405
 16.9346  61.1491
 16.954  61.2204
 16.9734  61.4823
 16.9928  61.7043
 17.0122  61.906
 17.0316  62.0508
 17.0511  62.1997
 17.0705  62.4321
 17.0899  62.8843
 17.1093  63.4367
 17.1287  63.7464
 17.1481  64.2058
 17.1675  65.2093
 17.1869  67.0733
 17.2063  71.3081
 17.2257  91.8579
 17.2451  191.555
 17.2646  467.926
 17.284  632.932
 17.3034  496.452
 17.3228  252.859
 17.3422  103.151
 17.3616  73.564
 17.381  68.4948
 17.4004  66.6238
 17.4198  65.6688
 17.4392  64.8935
 17.4586  64.3654
 17.4781  63.9519
 17.4975  63.277
 17.5169  62.7634
 17.5363  62.5315
 17.5557  62.3896
 17.5751  62.3301
 17.5945  62.1805
 17.6139  62.0573
 17.6333  61.7887
 17.6527  61.5738
 17.6722  61.4623
 17.6916  61.3973
 17.711  61.4902
 17.7304  61.3696
 17.7498  61.2361
 17.7692  61.2924
 17.7886  61.3361
 17.808  61.3827
 17.8274  61.3563
 17.8468  61.3967
 17.8662  61.4093
 17.8857  61.4339
 17.9051  61.4907
 17.9245  61.6243
 17.9439  61.6902
 17.9633  61.8104
 17.9827  61.8983
 18.0021  61.7882
 18.0215  61.8607
 18.0409  62.0544
 18.0603  62.4321
 18.0797  62.6976
 18.0992  62.9911
 18.1186  63.6368
 18.138  64.4643
 18.1574  65.2918
 18.1768  66.3513
 18.1962  67.3177
 18.2156  67.4281
 18.235  66.9991
 18.2544  66.3335
 18.2738  65.5187
 18.2932  64.6268
 18.3127  63.9928
 18.3321  63.6925
 18.3515  63.6483
 18.3709  63.6672
 18.3903  63.6293
 18.4097  63.6506
 18.4291  63.6885
 18.4485  63.8184
 18.4679  64.1732
 18.4873  64.5658
 18.5068  64.7063
 18.5262  64.8945
 18.5456  65.257
 18.565  65.4739
 18.5844  65.6892
 18.6038  66.4082
 18.6232  67.0014
 18.6426  67.4358
 18.662  68.1953
 18.6814  69.3487
 18.7008  70.6979
 18.7203  72.7509
 18.7397  75.8589
 18.7591  81.5294
 18.7785  97.7975
 18.7979  202.295
 18.8173  617.854
 18.8367  1227.55
 18.8561  1367.55
 18.8755  848.242
 18.8949  323.169
 18.9143  124.171
 18.9338  89.2982
 18.9532  80.3435
 18.9726  76.3342
 18.992  73.9756
 19.0114  72.2065
 19.0308  70.9225
 19.0502  70.1342
 19.0696  69.578
 19.089  69.0302
 19.1084  68.6843
 19.1278  68.6876
 19.1473  68.7327
 19.1667  69.0199
 19.1861  69.5366
 19.2055  70.3054
 19.2249  71.5461
 19.2443  73.7047
 19.2637  78.6642
 19.2831  101.678
 19.3025  236.112
 19.3219  566.222
 19.3414  867.865
 19.3608  742.192
 19.3802  358.619
 19.3996  141.882
 19.419  85.2324
 19.4384  74.9142
 19.4578  71.2281
 19.4772  69.104
 19.4966  67.7356
 19.516  66.6758
 19.5354  65.9205
 19.5549  65.0927
 19.5743  64.2683
 19.5937  63.8912
 19.6131  63.57
 19.6325  63.3878
 19.6519  63.0848
 19.6713  62.6232
 19.6907  62.3878
 19.7101  62.1545
 19.7295  61.9172
 19.7489  61.673
 19.7684  61.4038
 19.7878  61.1971
 19.8072  61.0349
 19.8266  60.7493
 19.846  60.6313
 19.8654  60.6136
 19.8848  60.4186
 19.9042  60.0495
 19.9236  59.6345
 19.943  59.6503
 19.9624  59.8061
 19.9819  59.9884
 20.0013  59.9384
 20.0207  59.4166
 20.0401  58.9182
 20.0595  58.6794
 20.0789  58.4949
 20.0983  58.4619
 20.1177  58.6035
 20.1371  58.394
 20.1565  58.2016
 20.1759  58.1728
 20.1954  58.3017
 20.2148  58.1535
 20.2342  57.8374
 20.2536  57.7406
 20.273  57.5325
 20.2924  57.2179
 20.3118  57.2974
 20.3312  57.5108
 20.3506  57.4358
 20.37  57.1549
 20.3895  56.9273
 20.4089  56.8313
 20.4283  56.731
 20.4477  56.6127
 20.4671  56.6537
 20.4865  56.664
 20.5059  56.5503
 20.5253  56.5269
 20.5447  56.511
 20.5641  56.4445
 20.5835  56.3522
 20.603  56.0614
 20.6224  55.9969
 20.6418  56.0593
 20.6612  56.0113
 20.6806  56.0129
 20.7  56.0621
 20.7194  56.0632
 20.7388  55.9669
 20.7582  56.0665
 20.7776  56.124
 20.797  56.0222
 20.8165  56.12
 20.8359  56.4311
 20.8553  56.5263
 20.8747  56.6407
 20.8941  56.8071
 20.9135  56.9483
 20.9329  57.3036
 20.9523  57.8901
 20.9717  58.4901
 20.9911  58.9127
 21.0105  59.4395
 21.03  60.5089
 21.0494  61.6888
 21.0688  62.9551
 21.0882  64.6819
 21.1076  67.5882
 21.127  73.8539
 21.1464  99.8272
 21.1658  235.332
 21.1852  653.421
 21.2046  1111.08
 21.2241  1033.47
 21.2435  551.762
 21.2629  200.044
 21.2823  92.7985
 21.3017  73.5373
 21.3211  67.3243
 21.3405  64.0015
 21.3599  61.7795
 21.3793  60.4688
 21.3987  59.7138
 21.4181  58.6113
 21.4376  57.6938
 21.457  57.0269
 21.4764  56.4803
 21.4958  56.2109
 21.5152  55.7927
 21.5346  55.2676
 21.554  54.9184
 21.5734  54.6589
 21.5928  54.3925
 21.6122  54.1923
 21.6316  54.0473
 21.6511  54.0649
 21.6705  53.8105
 21.6899  53.6712
 21.7093  53.7507
 21.7287  53.6326
 21.7481  53.4283
 21.7675  53.2959
 21.7869  53.2858
 21.8063  53.278
 21.8257  53.0147
 21.8451  52.766
 21.8646  52.918
 21.884  53.1521
 21.9034  52.734
 21.9228  52.4187
 21.9422  52.6486
 21.9616  52.9559
 21.981  53.0696
 22.0004  53.0157
 22.0198  52.9956
 22.0392  52.9367
 22.0586  52.9083
 22.0781  52.9012
 22.0975  52.9583
 22.1169  53.3193
 22.1363  53.6656
 22.1557  53.5378
 22.1751  53.3983
 22.1945  53.3778
 22.2139  53.5079
 22.2333  53.8055
 22.2527  54.3795
 22.2722  54.7721
 22.2916  55.0347
 22.311  55.476
 22.3304  56.2687
 22.3498  57.163
 22.3692  58.1761
 22.3886  60.0006
 22.408  62.6685
 22.4274  67.7395
 22.4468  85.2557
 22.4662  199.485
 22.4857  583.804
 22.5051  1046.02
 22.5245  1074.72
 22.5439  623.033
 22.5633  212.32
 22.5827  88.9886
 22.6021  69.727
 22.6215  64.0837
 22.6409  61.0087
 22.6603  59.0308
 22.6797  57.499
 22.6992  56.5579
 22.7186  56.0492
 22.738  55.1156
 22.7574  54.15
 22.7768  53.9138
 22.7962  53.8277
 22.8156  53.6748
 22.835  53.399
 22.8544  53.0357
 22.8738  52.8946
 22.8932  52.6525
 22.9127  52.3258
 22.9321  51.9193
 22.9515  51.6643
 22.9709  51.6165
 22.9903  51.361
 23.0097  51.3389
 23.0291  51.3083
 23.0485  51.2172
 23.0679  51.4254
 23.0873  51.3853
 23.1068  51.0781
 23.1262  50.8369
 23.1456  50.8146
 23.165  50.8951
 23.1844  50.6731
 23.2038  50.7875
 23.2232  50.9089
 23.2426  50.7317
 23.262  50.681
 23.2814  50.4745
 23.3008  50.6339
 23.3203  50.6944
 23.3397  50.4451
 23.3591  50.4642
 23.3785  50.474
 23.3979  50.386
 23.4173  50.5637
 23.4367  50.9012
 23.4561  51.0092
 23.4755  51.1393
 23.4949  51.4704
 23.5143  51.8926
 23.5338  52.1266
 23.5532  52.2281
 23.5726  52.2534
 23.592  52.0875
 23.6114  52.0021
 23.6308  52.1032
 23.6502  51.654
 23.6696  51.018
 23.689  50.8976
 23.7084  50.7618
 23.7278  50.7336
 23.7473  50.6257
 23.7667  49.9938
 23.7861  50.016
 23.8055  50.2541
 23.8249  50.0968
 23.8443  50.1157
 23.8637  50.5275
 23.8831  50.6956
 23.9025  50.5375
 23.9219  50.6525
 23.9413  50.3763
 23.9608  50.2494
 23.9802  50.1665
 23.9996  50.2543
 24.019  50.5045
 24.0384  50.601
 24.0578  50.7985
 24.0772  50.6842
 24.0966  50.376
 24.116  50.5041
 24.1354  50.9627
 24.1549  50.9876
 24.1743  50.6967
 24.1937  50.8413
 24.2131  50.9174
 24.2325  50.7792
 24.2519  50.9749
 24.2713  50.9398
 24.2907  51.2099
 24.3101  51.7539
 24.3295  52.1255
 24.3489  52.2327
 24.3684  52.2668
 24.3878  52.8085
 24.4072  53.2422
 24.4266  53.5488
 24.446  55.0376
 24.4654  59.121
 24.4848  75.236
 24.5042  149.851
 24.5236  286.673
 24.543  349.438
 24.5624  260.947
 24.5819  136.245
 24.6013  74.5525
 24.6207  59.864
 24.6401  56.2259
 24.6595  55.091
 24.6789  54.05
 24.6983  53.1983
 24.7177  52.3595
 24.7371  51.8855
 24.7565  52.3929
 24.7759  52.4349
 24.7954  52.3186
 24.8148  52.3864
 24.8342  51.9082
 24.8536  51.6748
 24.873  51.7821
 24.8924  51.6148
 24.9118  51.7763
 24.9312  52.0049
 24.9506  52.1498
 24.97  52.4019
 24.9895  52.1405
 25.0089  51.6223
 25.0283  51.4437
 25.0477  51.3295
 25.0671  50.9829
 25.0865  50.9966
 25.1059  51.7033
 25.1253  51.7526
 25.1447  51.4205
 25.1641  51.3836
 25.1835  51.4995
 25.203  52.0281
 25.2224  52.0967
 25.2418  52.0353
 25.2612  52.3405
 25.2806  52.6848
 25.3  52.3585
 25.3194  52.2819
 25.3388  52.7883
 25.3582  53.1962
 25.3776  53.441
 25.397  53.5177
 25.4165  53.6271
 25.4359  53.4872
 25.4553  53.5453
 25.4747  53.7557
 25.4941  54.8809
 25.5135  56.7699
 25.5329  58.1155
 25.5523  59.446
 25.5717  61.2048
 25.5911  65.5258
 25.6105  77.3929
 25.63  137.792
 25.6494  375.952
 25.6688  779.901
 25.6882  934.992
 25.7076  627.866
 25.727  251.346
 25.7464  104.816
 25.7658  74.1496
 25.7852  65.8595
 25.8046  62.7212
 25.8241  61.2139
 25.8435  59.8353
 25.8629  58.3466
 25.8823  58.6195
 25.9017  59.4418
 25.9211  59.2334
 25.9405  59.2771
 25.9599  60.1224
 25.9793  66.4239
 25.9987  96.3185
 26.0181  214.943
 26.0376  438.58
 26.057  510.021
 26.0764  327.645
 26.0958  161.892
 26.1152  83.7491
 26.1346  64.9421
 26.154  60.0143
 26.1734  57.8643
 26.1928  56.5044
 26.2122  55.0555
 26.2316  54.845
 26.2511  54.2512
 26.2705  54.0394
 26.2899  53.8121
 26.3093  52.895
 26.3287  52.3124
 26.3481  52.3304
 26.3675  52.1595
 26.3869  52.19
 26.4063  52.5661
 26.4257  51.9366
 26.4451  51.5709
 26.4646  51.5816
 26.484  51.0339
 26.5034  51.9955
 26.5228  52.4888
 26.5422  51.5505
 26.5616  50.3089
 26.581  50.313
 26.6004  51.6837
 26.6198  51.9737
 26.6392  52.571
 26.6586  52.9272
 26.6781  52.9701
 26.6975  53.9037
 26.7169  54.3802
 26.7363  53.7441
 26.7557  51.6562
 26.7751  50.3031
 26.7945  51.4322